Lines used in correction factor calculation:
Wavenumber (cm-1) 	 del sigma / sigma 	 aln SNR 	 cln SNR
19429.781306 	 -6.127707E-07 	 324.7 	 100.0
19749.399579 	 -6.217404E-07 	 772.8 	 100.0
19957.178372 	 -6.099059E-07 	 697.9 	 100.0
20106.386719 	 -6.176644E-07 	 203.0 	 100.0
20135.058823 	 -6.070506E-07 	 2050.0 	 100.0
20265.137217 	 -6.077926E-07 	 535.7 	 100.0
20448.207585 	 -6.203478E-07 	 701.8 	 100.0
20486.668152 	 -6.126911E-07 	 5713.0 	 100.0
20622.124656 	 -6.137098E-07 	 1799.0 	 100.0
20801.435741 	 -6.125058E-07 	 4072.0 	 100.0
20981.102514 	 -6.202725E-07 	 6164.0 	 100.0
21109.394617 	 -6.119076E-07 	 2411.0 	 100.0
21149.753893 	 -6.143334E-07 	 3538.0 	 100.0
21462.902601 	 -6.243797E-07 	 4015.0 	 100.0
21831.059327 	 -6.196218E-07 	 2583.0 	 100.0
21995.797583 	 -6.266197E-07 	 5135.0 	 100.0
22561.968424 	 -5.905513E-07 	 660.8 	 100.0
22566.080561 	 -6.142405E-07 	 2064.0 	 100.0
22587.431714 	 -6.248608E-07 	 4805.0 	 100.0
22715.813977 	 -6.108960E-07 	 1850.0 	 100.0
22720.406482 	 -6.021899E-07 	 722.4 	 100.0
22826.389183 	 -6.169614E-07 	 1797.0 	 100.0
22992.294963 	 -6.159890E-07 	 6552.0 	 100.0
23081.818372 	 -6.096573E-07 	 1957.0 	 100.0
23431.689206 	 -6.318793E-07 	 946.6 	 100.0
23644.318641 	 -6.319066E-07 	 1083.0 	 100.0

--------------------------------------------------
Lines rejected from correction factor calcuation:
Wavenumber (cm-1) 	 del sigma / sigma

--------------------------------------------------
Correction factor = 	-6.156463E-07
Upper s.d. limit  = 	-6.419397E-07
Lower s.d. limit  = 	-5.893529E-07
Calibration unc.  = 	 1.460826E-09